Folder: FAST-UAV/data/catalogues/Batteries

Note: README.md
# FAST-ODD

Preliminary design of multirotor tool, based on FAST-OAD framework and DroneApp tool.

DroneApp: https://github.com/SizingLab/droneapp-legacy

Fast-OAD: https://github.com/fast-aircraft-design/FAST-OAD

File: Non-Dominated-Batteries - old.csv
;TYPE;Model;Voltage_V;Capacity_mAh;Discharge_Rate_C;Max_Burst_Discharge_Rate_C;Weight_g;Max_burst_current_A;Volume_mm3;Energy_density_Wh_kg;Imax [A];Pmax_W_kg;Pvol_Wh_m3;Energy_J;Dominated
9;TATTU;TATTU;14.8;3700;45;90;240;166.5;150552.0;228.167;333.0;20535.0;363728;197136.0;0
16;KOKAM;KOKAM SLPB526495;3.7;3300;2;3;67;;33262.65;182.239;9.9;546.716;367078;43956.0;0
18;KOKAM;KOKAM SLPB776495;3.7;5300;2;3;102;;48046.05;192.255;15.9;576.765;408150;70596.0;0
19;KOKAM;KOKAM SLPB68106100;3.7;8000;2;3;160;;79126.5;185.0;24.0;555.0;374085;106560.0;0
21;KOKAM;KOKAM SLPB98106100;3.7;10000;2;3;210;;109140.0;176.19;30.0;528.571;339014;133200.0;0
22;KOKAM;KOKAM SLPB7570270;3.7;15000;2;3;317;;171740.8;175.079;45.0;525.237;323161;199800.0;0
23;KOKAM;KOKAM SLPB125255255;3.7;87000;2;3;1780;;923260.0;180.843;261.0;542.528;348656;1158840.0;0
24;KOKAM;KOKAM SLPB70460330;3.7;100000;2;3;2070;;1057518.0;178.744;300.0;536.232;349876;1332000.0;0
25;KOKAM;KOKAM SLPB120460330;3.7;150000;2;3;3210;;1586277.0;172.897;450.0;518.692;349876;1998000.0;0
26;KOKAM;KOKAM SLPB140460330;3.7;200000;2;3;4180;;2099928.6;177.033;600.0;531.1;352393;2664000.0;0
27;KOKAM;KOKAM SLPB160460330H;3.7;200000;2;3;4580;;2235895.2;161.572;600.0;484.716;330964;2664000.0;0
28;KOKAM;KOKAM SLPB160460330;3.7;240000;2;3;4780;;2386969.2;185.774;720.0;557.322;372020;3196800.0;0
29;ProLiteX;TP500-2SPX25J;7.4;500;25;50;30;25.0;14310.0;123.333;25.0;6166.67;258560;13320.0;0
30;ProLiteX;TP500-3SPX25J;11.1;500;25;50;44;25.0;20670.0;126.136;25.0;6306.82;268505;19980.0;0
31;ProLiteX;TP750-2SPX25J;7.4;750;25;50;39;37.5;20460.0;142.308;37.5;7115.38;271261;19980.0;0
32;ProLiteX;TP750-3SPX25J;11.1;750;25;50;57;37.5;30690.0;146.053;37.5;7302.63;271261;29970.0;0
33;ProLiteX;TP910-2SPX25J;7.4;910;25;50;47;22.7;23075.0;143.277;45.5;7163.83;291831;24242.4;0
35;ProLiteX;TP1350-2SPX25J;7.4;1350;25;50;61;67.5;30056.0;163.77;67.5;8188.52;332380;35964.0;0
36;ProLiteX;TP1350-3SPX25J;11.1;1350;25;50;94;67.5;46240.0;159.415;67.5;7970.74;324070;53946.0;0
37;ProLiteX;TP1350-2SPX25;7.4;1350;25;50;64;67.5;30056.0;156.094;67.5;7804.69;332380;35964.0;0
38;ProLiteX;TP1350-3SPX25;11.1;1350;25;50;95;67.5;46240.0;157.737;67.5;7886.84;324070;53946.0;0
42;ProLiteX;TP2200-3SPX25;11.1;2200;25;50;151;110.0;74970.0;161.722;110.0;8086.09;325730;87912.0;0
43;ProLiteX;TP2200-4SPX25;14.8;2200;25;50;197;110.0;96390.0;165.279;110.0;8263.96;337794;117216.0;0
44;ProLiteX;TP2800-2SPX25;7.4;2800;25;50;123;140.0;58956.0;168.455;140.0;8422.76;351449;74592.0;0
45;ProLiteX;TP2800-3SPX25;11.1;2800;25;50;181;140.0;83232.0;171.713;140.0;8585.64;373414;111888.0;0
46;ProLiteX;TP2800-3SPX25EJ;11.1;2800;25;50;181;140.0;83232.0;171.713;140.0;8585.64;373414;111888.0;0
47;ProLiteX;TP2800-3SPX25XJ;11.1;2800;25;50;181;140.0;83232.0;171.713;140.0;8585.64;373414;111888.0;0
48;ProLiteX;TP2800-4SPX25;14.8;2800;25;50;234;140.0;110976.0;177.094;140.0;8854.7;373414;149184.0;0
50;ProLiteX;TP2800-6SPX25;22.2;2800;25;50;351;140.0;166464.0;177.094;140.0;8854.7;373414;223776.0;0
55;ProLiteX;TP3400-6SPX25;22.2;3400;25;50;478;170.0;220590.0;157.908;170.0;7895.4;342173;271728.0;0
56;ProLiteX;TP3400-6SPX25L;22.2;3400;25;50;488;170.0;221407.0;154.672;170.0;7733.61;340911;271728.0;0
58;ProLiteX;TP3400-8SPX25;29.6;3400;25;50;611;170.0;290250.0;164.714;170.0;8235.68;346736;362304.0;0
60;ProLiteX;TP4000-2SPX25;7.4;4000;25;50;156;200.0;79560.0;189.744;200.0;9487.18;372046;106560.0;0
63;ProLiteX;TP4000-5SPX25;18.5;4000;25;50;435;200.0;185640.0;170.115;200.0;8505.75;398621;266400.0;0
64;ProLiteX;TP4000-6SPX25L;22.2;4000;25;50;536;200.0;222768.0;165.672;200.0;8283.58;398621;319680.0;0
65;ProLiteX;TP4000-7SPX25;25.9;4000;25;50;614;200.0;259896.0;168.73;200.0;8436.48;398621;372960.0;0
66;ProLiteX;TP4000-8SPX25;29.6;4000;25;50;702;200.0;297024.0;168.661;200.0;8433.05;398621;426240.0;0
67;ProLiteX;TP4000-8SPX25L;29.6;4000;25;50;712;200.0;297024.0;166.292;200.0;8314.61;398621;426240.0;0
68;ProLiteX;TP4000-9SPX25;33.3;4000;25;50;790;200.0;328848.0;168.608;200.0;8430.38;405050;479520.0;0
69;ProLiteX;TP4000-10SPX25;37.0;4000;25;50;877;200.0;371280.0;168.757;200.0;8437.86;398621;532800.0;0
70;ProLiteX;TP4000-10SPX25L;37.0;4000;25;50;887;200.0;371280.0;166.855;200.0;8342.73;398621;532800.0;0
71;ProLiteX;TP4000-6SPX25;22.2;4000;25;50;536;200.0;222768.0;165.672;200.0;8283.58;398621;319680.0;0
72;ProLiteX;TP4400-2SPX25;7.4;4400;25;50;205;220.0;93568.0;158.829;220.0;7941.46;347982;117216.0;0
76;ProLiteX;TP4400-6SPX25;22.2;4400;25;50;601;220.0;280704.0;162.529;220.0;8126.46;347982;351648.0;0
77;ProLiteX;TP4400-7SPX25;25.9;4400;25;50;701;220.0;321640.0;162.568;220.0;8128.39;354309;410256.0;0
81;ProLiteX;TP4400-10SPX25;37.0;4400;25;50;994;220.0;456144.0;163.783;220.0;8189.13;356905;586080.0;0
83;ProLiteX;TP5000-3SPX25;11.1;5000;25;50;349;250.0;163744.0;159.026;250.0;7951.29;338943.717;199800.0;0
84;ProLiteX;TP5000-4SPX25;14.8;5000;25;50;465;250.0;216376.0;159.14;250.0;7956.99;341997;266400.0;0
85;ProLiteX;TP5000-5SPX25;18.5;5000;25;50;574;250.0;269008.0;161.15;250.0;8057.49;343856;333000.0;0
90;ProLiteX;TP5000-9SPX25;33.3;5000;25;50;1046;250.0;479536.0;159.178;250.0;7958.89;347211;599400.0;0
91;ProLiteX;TP5000-10SPX25;37.0;5000;25;50;1162;250.0;538016.0;159.208;250.0;7960.41;343856;666000.0;0
92;ProLiteX;TP5000-10SPX25L;37.0;5000;25;50;1172;250.0;538016.0;157.85;250.0;7892.49;343856;666000.0;0
94;ProLiteX;TP6000-3SPX25;11.1;6000;25;50;372;300.0;176904.0;179.032;300.0;8951.61;376475;239760.0;0
95;ProLiteX;TP6000-4SPX25;14.8;6000;25;50;490;300.0;229320.0;181.224;300.0;9061.22;387232;319680.0;0
96;ProLiteX;TP6000-5SPX25;18.5;6000;25;50;638;300.0;281736.0;173.981;300.0;8699.06;393986;399600.0;0
97;ProLiteX;TP6000-6SPX25;22.2;6000;25;50;743;300.0;340704.0;179.273;300.0;8963.66;390955;479520.0;0
99;ProLiteX;TP6800-3SPX25;11.1;6800;25;50;484;340.0;225492.0;155.95;340.0;7797.52;334735;271728.0;0
102;ProLiteX;TP6800-6SPX25;22.2;6800;25;50;907;340.0;445050.0;166.439;340.0;8321.94;339198;543456.0;0
103;ProLiteX;TP8000-2SPX25;7.4;8000;25;50;350;400.0;167356.0;169.143;400.0;8457.14;353737;213120.0;0
104;ProLiteX;TP8000-3SPX25;11.1;8000;25;50;526;400.0;251034.0;168.821;400.0;8441.06;353737;319680.0;0
105;ProLiteX;TP8000-4SPX25;14.8;8000;25;50;701;400.0;334712.0;168.902;400.0;8445.08;353737;426240.0;0
106;ProLiteX;TP8000-5SPX25;18.5;8000;25;50;859;400.0;418390.0;172.293;400.0;8614.67;353737;532800.0;0
107;RAMPAGE;TP325-1SR70J;3.7;325;70;140;12;45.5;5625.0;100.208;45.5;14029.2;213778;4329.0;0
108;RAMPAGE;TP325-2SR70B;7.4;325;70;140;23;45.5;12375.0;104.565;45.5;14639.1;194343;8658.0;0

File: Non-Dominated-Batteries.csv
;TYPE;Model;Voltage_V;Capacity_mAh;Discharge_Rate_C;Max_Burst_Discharge_Rate_C;Weight_g;Max_burst_current_A;Volume_mm3;Energy_density_Wh_kg;Imax [A];Pmax_W_kg;Pvol_Wh_m3;Energy_J;Dominated
9;TATTU;TATTU;14.8;3700;45;90;240;166.5;150552;228.167;333;20535;363728;197136;0
29;ProLiteX;TP500-2SPX25J;7.4;500;25;50;30;25;14310;123.333;25;6166.67;258560;13320;0
30;ProLiteX;TP500-3SPX25J;11.1;500;25;50;44;25;20670;126.136;25;6306.82;268505;19980;0
31;ProLiteX;TP750-2SPX25J;7.4;750;25;50;39;37.5;20460;142.308;37.5;7115.38;271261;19980;0
32;ProLiteX;TP750-3SPX25J;11.1;750;25;50;57;37.5;30690;146.053;37.5;7302.63;271261;29970;0
33;ProLiteX;TP910-2SPX25J;7.4;910;25;50;47;22.7;23075;143.277;45.5;7163.83;291831;24242.4;0
35;ProLiteX;TP1350-2SPX25J;7.4;1350;25;50;61;67.5;30056;163.77;67.5;8188.52;332380;35964;0
36;ProLiteX;TP1350-3SPX25J;11.1;1350;25;50;94;67.5;46240;159.415;67.5;7970.74;324070;53946;0
37;ProLiteX;TP1350-2SPX25;7.4;1350;25;50;64;67.5;30056;156.094;67.5;7804.69;332380;35964;0
38;ProLiteX;TP1350-3SPX25;11.1;1350;25;50;95;67.5;46240;157.737;67.5;7886.84;324070;53946;0
42;ProLiteX;TP2200-3SPX25;11.1;2200;25;50;151;110;74970;161.722;110;8086.09;325730;87912;0
43;ProLiteX;TP2200-4SPX25;14.8;2200;25;50;197;110;96390;165.279;110;8263.96;337794.377;117216;0
44;ProLiteX;TP2800-2SPX25;7.4;2800;25;50;123;140;58956;168.455;140;8422.76;351449;74592;0
45;ProLiteX;TP2800-3SPX25;11.1;2800;25;50;181;140;83232;171.713;140;8585.64;373414;111888;0
46;ProLiteX;TP2800-3SPX25EJ;11.1;2800;25;50;181;140;83232;171.713;140;8585.64;373414;111888;0
47;ProLiteX;TP2800-3SPX25XJ;11.1;2800;25;50;181;140;83232;171.713;140;8585.64;373414;111888;0
48;ProLiteX;TP2800-4SPX25;14.8;2800;25;50;234;140;110976;177.094;140;8854.7;373414;149184;0
50;ProLiteX;TP2800-6SPX25;22.2;2800;25;50;351;140;166464;177.094;140;8854.7;373414;223776;0
55;ProLiteX;TP3400-6SPX25;22.2;3400;25;50;478;170;220590;157.908;170;7895.4;342173;271728;0
56;ProLiteX;TP3400-6SPX25L;22.2;3400;25;50;488;170;221407;154.672;170;7733.61;340911;271728;0
58;ProLiteX;TP3400-8SPX25;29.6;3400;25;50;611;170;290250;164.714;170;8235.68;346736;362304;0
60;ProLiteX;TP4000-2SPX25;7.4;4000;25;50;156;200;79560;189.744;200;9487.18;372046;106560;0
63;ProLiteX;TP4000-5SPX25;18.5;4000;25;50;435;200;185640;170.115;200;8505.75;398621;266400;0
64;ProLiteX;TP4000-6SPX25L;22.2;4000;25;50;536;200;222768;165.672;200;8283.58;398621;319680;0
65;ProLiteX;TP4000-7SPX25;25.9;4000;25;50;614;200;259896;168.73;200;8436.48;398621;372960;0
66;ProLiteX;TP4000-8SPX25;29.6;4000;25;50;702;200;297024;168.661;200;8433.05;398621;426240;0
67;ProLiteX;TP4000-8SPX25L;29.6;4000;25;50;712;200;297024;166.292;200;8314.61;398621;426240;0
68;ProLiteX;TP4000-9SPX25;33.3;4000;25;50;790;200;328848;168.608;200;8430.38;405050;479520;0
69;ProLiteX;TP4000-10SPX25;37;4000;25;50;877;200;371280;168.757;200;8437.86;398621;532800;0
70;ProLiteX;TP4000-10SPX25L;37;4000;25;50;887;200;371280;166.855;200;8342.73;398621;532800;0
71;ProLiteX;TP4000-6SPX25;22.2;4000;25;50;536;200;222768;165.672;200;8283.58;398621;319680;0
72;ProLiteX;TP4400-2SPX25;7.4;4400;25;50;205;220;93568;158.829;220;7941.46;347982;117216;0
76;ProLiteX;TP4400-6SPX25;22.2;4400;25;50;601;220;280704;162.529;220;8126.46;347982;351648;0
77;ProLiteX;TP4400-7SPX25;25.9;4400;25;50;701;220;321640;162.568;220;8128.39;354309;410256;0
81;ProLiteX;TP4400-10SPX25;37;4400;25;50;994;220;456144;163.783;220;8189.13;356905;586080;0
83;ProLiteX;TP5000-3SPX25;11.1;5000;25;50;349;250;163744;159.026;250;7951.29;338943.717;199800;0
84;ProLiteX;TP5000-4SPX25;14.8;5000;25;50;465;250;216376;159.14;250;7956.99;341997.264;266400;0
85;ProLiteX;TP5000-5SPX25;18.5;5000;25;50;574;250;269008;161.15;250;8057.49;343856;333000;0
90;ProLiteX;TP5000-9SPX25;33.3;5000;25;50;1046;250;479536;159.178;250;7958.89;347211;599400;0
91;ProLiteX;TP5000-10SPX25;37;5000;25;50;1162;250;538016;159.208;250;7960.41;343856;666000;0
92;ProLiteX;TP5000-10SPX25L;37;5000;25;50;1172;250;538016;157.85;250;7892.49;343856;666000;0
94;ProLiteX;TP6000-3SPX25;11.1;6000;25;50;372;300;176904;179.032;300;8951.61;376475;239760;0
95;ProLiteX;TP6000-4SPX25;14.8;6000;25;50;490;300;229320;181.224;300;9061.22;387232;319680;0
96;ProLiteX;TP6000-5SPX25;18.5;6000;25;50;638;300;281736;173.981;300;8699.06;393986;399600;0
97;ProLiteX;TP6000-6SPX25;22.2;6000;25;50;743;300;340704;179.273;300;8963.66;390955;479520;0
99;ProLiteX;TP6800-3SPX25;11.1;6800;25;50;484;340;225492;155.95;340;7797.52;334735;271728;0
102;ProLiteX;TP6800-6SPX25;22.2;6800;25;50;907;340;445050;166.439;340;8321.94;339198;543456;0
103;ProLiteX;TP8000-2SPX25;7.4;8000;25;50;350;400;167356;169.143;400;8457.14;353736.944;213120;0
104;ProLiteX;TP8000-3SPX25;11.1;8000;25;50;526;400;251034;168.821;400;8441.06;353736.944;319680;0
105;ProLiteX;TP8000-4SPX25;14.8;8000;25;50;701;400;334712;168.902;400;8445.08;353736.944;426240;0
106;ProLiteX;TP8000-5SPX25;18.5;8000;25;50;859;400;418390;172.293;400;8614.67;353736.944;532800;0
107;RAMPAGE;TP325-1SR70J;3.7;325;70;140;12;45.5;5625;100.208;45.5;14029.2;213778;4329;0
108;RAMPAGE;TP325-2SR70B;7.4;325;70;140;23;45.5;12375;104.565;45.5;14639.1;194343;8658;0